Remove this text from file to read data below. Data for n=15 observers. Each observer tested over 21 stimulus strengths x (first line). Mean reaction time at each value of x is on line 2; proportion of trials on which comparison stimulus was chosen is on line 3.

Observer 1
-0.100	-0.090	-0.080	-0.070	-0.060	-0.050	-0.040	-0.030	-0.020	-0.010	0.000	0.010	0.020	0.030	0.040	0.050	0.060	0.070	0.080	0.090	0.100	
1.103	1.751	1.025	1.087	1.137	1.317	1.175	1.374	1.525	2.101	2.371	2.858	2.490	2.679	3.560	2.700	2.807	3.258	2.474	2.538	1.622	
0.000	0.000	0.050	0.000	0.000	0.000	0.000	0.050	0.150	0.150	0.200	0.150	0.500	0.400	0.500	0.500	0.900	0.800	1.000	0.800	0.850	

Observer 2
-0.100	-0.090	-0.080	-0.070	-0.060	-0.050	-0.040	-0.030	-0.020	-0.010	0.000	0.010	0.020	0.030	0.040	0.050	0.060	0.070	0.080	0.090	0.100	
1.103	1.751	1.025	1.087	1.137	1.317	1.175	1.374	1.525	2.101	2.371	2.858	2.490	2.679	3.560	2.700	2.807	3.258	2.474	2.538	1.622	
0.000	0.000	0.050	0.000	0.000	0.000	0.000	0.050	0.150	0.150	0.200	0.150	0.500	0.400	0.500	0.500	0.900	0.800	1.000	0.800	0.850	

Observer 3
-0.100	-0.090	-0.080	-0.070	-0.060	-0.050	-0.040	-0.030	-0.020	-0.010	0.000	0.010	0.020	0.030	0.040	0.050	0.060	0.070	0.080	0.090	0.100	
1.103	1.751	1.025	1.087	1.137	1.317	1.175	1.374	1.525	2.101	2.371	2.858	2.490	2.679	3.560	2.700	2.807	3.258	2.474	2.538	1.622	
0.000	0.000	0.050	0.000	0.000	0.000	0.000	0.050	0.150	0.150	0.200	0.150	0.500	0.400	0.500	0.500	0.900	0.800	1.000	0.800	0.850	

Observer 4
-0.100	-0.090	-0.080	-0.070	-0.060	-0.050	-0.040	-0.030	-0.020	-0.010	0.000	0.010	0.020	0.030	0.040	0.050	0.060	0.070	0.080	0.090	0.100	
1.103	1.751	1.025	1.087	1.137	1.317	1.175	1.374	1.525	2.101	2.371	2.858	2.490	2.679	3.560	2.700	2.807	3.258	2.474	2.538	1.622	
0.000	0.000	0.050	0.000	0.000	0.000	0.000	0.050	0.150	0.150	0.200	0.150	0.500	0.400	0.500	0.500	0.900	0.800	1.000	0.800	0.850	

Observer 5
-0.100	-0.090	-0.080	-0.070	-0.060	-0.050	-0.040	-0.030	-0.020	-0.010	0.000	0.010	0.020	0.030	0.040	0.050	0.060	0.070	0.080	0.090	0.100	
1.103	1.751	1.025	1.087	1.137	1.317	1.175	1.374	1.525	2.101	2.371	2.858	2.490	2.679	3.560	2.700	2.807	3.258	2.474	2.538	1.622	
0.000	0.000	0.050	0.000	0.000	0.000	0.000	0.050	0.150	0.150	0.200	0.150	0.500	0.400	0.500	0.500	0.900	0.800	1.000	0.800	0.850	

Observer 6
-0.100	-0.090	-0.080	-0.070	-0.060	-0.050	-0.040	-0.030	-0.020	-0.010	0.000	0.010	0.020	0.030	0.040	0.050	0.060	0.070	0.080	0.090	0.100	
1.103	1.751	1.025	1.087	1.137	1.317	1.175	1.374	1.525	2.101	2.371	2.858	2.490	2.679	3.560	2.700	2.807	3.258	2.474	2.538	1.622	
0.000	0.000	0.050	0.000	0.000	0.000	0.000	0.050	0.150	0.150	0.200	0.150	0.500	0.400	0.500	0.500	0.900	0.800	1.000	0.800	0.850	

Observer 7
-0.100	-0.090	-0.080	-0.070	-0.060	-0.050	-0.040	-0.030	-0.020	-0.010	0.000	0.010	0.020	0.030	0.040	0.050	0.060	0.070	0.080	0.090	0.100	
1.103	1.751	1.025	1.087	1.137	1.317	1.175	1.374	1.525	2.101	2.371	2.858	2.490	2.679	3.560	2.700	2.807	3.258	2.474	2.538	1.622	
0.000	0.000	0.050	0.000	0.000	0.000	0.000	0.050	0.150	0.150	0.200	0.150	0.500	0.400	0.500	0.500	0.900	0.800	1.000	0.800	0.850	

Observer 8
-0.100	-0.090	-0.080	-0.070	-0.060	-0.050	-0.040	-0.030	-0.020	-0.010	0.000	0.010	0.020	0.030	0.040	0.050	0.060	0.070	0.080	0.090	0.100	
1.103	1.751	1.025	1.087	1.137	1.317	1.175	1.374	1.525	2.101	2.371	2.858	2.490	2.679	3.560	2.700	2.807	3.258	2.474	2.538	1.622	
0.000	0.000	0.050	0.000	0.000	0.000	0.000	0.050	0.150	0.150	0.200	0.150	0.500	0.400	0.500	0.500	0.900	0.800	1.000	0.800	0.850	

Observer 9
-0.100	-0.090	-0.080	-0.070	-0.060	-0.050	-0.040	-0.030	-0.020	-0.010	0.000	0.010	0.020	0.030	0.040	0.050	0.060	0.070	0.080	0.090	0.100	
1.103	1.751	1.025	1.087	1.137	1.317	1.175	1.374	1.525	2.101	2.371	2.858	2.490	2.679	3.560	2.700	2.807	3.258	2.474	2.538	1.622	
0.000	0.000	0.050	0.000	0.000	0.000	0.000	0.050	0.150	0.150	0.200	0.150	0.500	0.400	0.500	0.500	0.900	0.800	1.000	0.800	0.850	

Observer 10
-0.100	-0.090	-0.080	-0.070	-0.060	-0.050	-0.040	-0.030	-0.020	-0.010	0.000	0.010	0.020	0.030	0.040	0.050	0.060	0.070	0.080	0.090	0.100	
1.103	1.751	1.025	1.087	1.137	1.317	1.175	1.374	1.525	2.101	2.371	2.858	2.490	2.679	3.560	2.700	2.807	3.258	2.474	2.538	1.622	
0.000	0.000	0.050	0.000	0.000	0.000	0.000	0.050	0.150	0.150	0.200	0.150	0.500	0.400	0.500	0.500	0.900	0.800	1.000	0.800	0.850	

Observer 11
-0.100	-0.090	-0.080	-0.070	-0.060	-0.050	-0.040	-0.030	-0.020	-0.010	0.000	0.010	0.020	0.030	0.040	0.050	0.060	0.070	0.080	0.090	0.100	
1.103	1.751	1.025	1.087	1.137	1.317	1.175	1.374	1.525	2.101	2.371	2.858	2.490	2.679	3.560	2.700	2.807	3.258	2.474	2.538	1.622	
0.000	0.000	0.050	0.000	0.000	0.000	0.000	0.050	0.150	0.150	0.200	0.150	0.500	0.400	0.500	0.500	0.900	0.800	1.000	0.800	0.850	

Observer 12
-0.100	-0.090	-0.080	-0.070	-0.060	-0.050	-0.040	-0.030	-0.020	-0.010	0.000	0.010	0.020	0.030	0.040	0.050	0.060	0.070	0.080	0.090	0.100	
1.103	1.751	1.025	1.087	1.137	1.317	1.175	1.374	1.525	2.101	2.371	2.858	2.490	2.679	3.560	2.700	2.807	3.258	2.474	2.538	1.622	
0.000	0.000	0.050	0.000	0.000	0.000	0.000	0.050	0.150	0.150	0.200	0.150	0.500	0.400	0.500	0.500	0.900	0.800	1.000	0.800	0.850	

Observer 13
-0.100	-0.090	-0.080	-0.070	-0.060	-0.050	-0.040	-0.030	-0.020	-0.010	0.000	0.010	0.020	0.030	0.040	0.050	0.060	0.070	0.080	0.090	0.100	
1.103	1.751	1.025	1.087	1.137	1.317	1.175	1.374	1.525	2.101	2.371	2.858	2.490	2.679	3.560	2.700	2.807	3.258	2.474	2.538	1.622	
0.000	0.000	0.050	0.000	0.000	0.000	0.000	0.050	0.150	0.150	0.200	0.150	0.500	0.400	0.500	0.500	0.900	0.800	1.000	0.800	0.850	

Observer 14
-0.100	-0.090	-0.080	-0.070	-0.060	-0.050	-0.040	-0.030	-0.020	-0.010	0.000	0.010	0.020	0.030	0.040	0.050	0.060	0.070	0.080	0.090	0.100	
1.103	1.751	1.025	1.087	1.137	1.317	1.175	1.374	1.525	2.101	2.371	2.858	2.490	2.679	3.560	2.700	2.807	3.258	2.474	2.538	1.622	
0.000	0.000	0.050	0.000	0.000	0.000	0.000	0.050	0.150	0.150	0.200	0.150	0.500	0.400	0.500	0.500	0.900	0.800	1.000	0.800	0.850	

Observer 15
-0.100	-0.090	-0.080	-0.070	-0.060	-0.050	-0.040	-0.030	-0.020	-0.010	0.000	0.010	0.020	0.030	0.040	0.050	0.060	0.070	0.080	0.090	0.100	
1.103	1.751	1.025	1.087	1.137	1.317	1.175	1.374	1.525	2.101	2.371	2.858	2.490	2.679	3.560	2.700	2.807	3.258	2.474	2.538	1.622	
0.000	0.000	0.050	0.000	0.000	0.000	0.000	0.050	0.150	0.150	0.200	0.150	0.500	0.400	0.500	0.500	0.900	0.800	1.000	0.800	0.850	

